onset	duration	trial_type	response
0.0228	10.0226	p_startup	other
10.0621	0.4226	cross	other
10.568	1.5226	6_letters_same	other
12.0906	3.0227	cross	other
16.6132	1.5226	response	hit
18.1358	1.5226	blank2	other
19.6751	0.4226	cross	other
20.1811	1.5226	4_letters_different	other
21.7037	3.0227	cross	other
26.2263	1.5226	response	miss
27.7489	2.5226	blank2	other
30.2882	0.4226	cross	other
30.8108	1.5226	6_letters_different	other
32.3334	3.0227	cross	other
36.856	1.5226	response	hit
38.3786	1.5226	blank2	other
39.9179	0.4226	cross	other
40.4405	1.5226	2_letters_different	other
41.9631	3.0228	cross	other
46.4857	1.5226	response	hit
48.0083	2.0226	blank2	other
50.0476	0.4226	cross	other
50.5702	1.5226	6_letters_different	other
52.0928	3.0227	cross	other
56.6154	1.5226	response	hit
58.138	4.5226	blank2	other
62.6773	0.4226	cross	other
63.1999	1.5226	2_letters_different	other
64.7225	3.0227	cross	other
69.2451	1.5226	response	hit
70.7677	3.5226	blank2	other
74.307	0.4226	cross	other
74.8296	1.5226	6_letters_same	other
76.3522	3.0227	cross	other
80.8749	1.5226	response	hit
82.3974	4.5226	blank2	other
86.9367	0.4226	cross	other
87.4594	1.5226	4_letters_same	other
88.9819	3.0228	cross	other
93.5045	1.5226	response	hit
95.0271	1.0226	blank2	other
96.0664	0.4226	cross	other
96.5891	1.5226	2_letters_different	other
98.1116	3.0227	cross	other
102.6342	1.5226	response	hit
104.1568	2.0226	blank2	other
106.1961	0.4226	cross	other
106.7187	1.5226	4_letters_same	other
108.2413	3.0227	cross	other
112.7639	1.5226	response	hit
114.2865	3.0226	blank2	other
117.3257	0.4226	cross	other
117.8317	1.5226	4_letters_different	other
119.3543	3.0227	cross	other
123.8769	1.5226	response	hit
125.3995	4.0226	blank2	other
129.4388	0.4226	cross	other
129.9615	1.5226	2_letters_same	other
131.4841	3.0227	cross	other
136.0067	1.5226	response	hit
137.5293	1.0226	blank2	other
138.5686	0.4226	cross	other
139.0913	1.5226	6_letters_different	other
140.6139	3.0227	cross	other
145.1364	1.5226	response	hit
146.6591	3.0226	blank2	other
149.6983	0.4226	cross	other
150.221	1.5226	6_letters_same	other
151.7436	3.0227	cross	other
156.2662	1.5226	response	hit
157.7888	1.5226	blank2	other
159.328	0.4226	cross	other
159.8507	1.5226	6_letters_same	other
161.3733	3.0227	cross	other
165.8959	1.5226	response	hit
167.4185	2.0226	blank2	other
169.4577	0.4226	cross	other
169.9804	1.5226	2_letters_different	other
171.5029	3.0227	cross	other
176.0256	1.5226	response	hit
177.5482	4.0226	blank2	other
181.5874	0.4226	cross	other
182.11	1.5226	2_letters_different	other
183.6326	3.0227	cross	other
188.1552	1.5226	response	hit
189.6778	1.5226	blank2	other
191.217	0.4226	cross	other
191.7396	1.5226	6_letters_same	other
193.2622	3.0227	cross	other
197.7848	1.5226	response	hit
199.3074	2.0226	blank2	other
201.3467	0.4227	cross	other
201.8694	1.5226	4_letters_different	other
203.392	3.0227	cross	other
207.9146	1.5226	response	hit
209.4372	3.0226	blank2	other
212.4765	0.4226	cross	other
212.9991	1.5226	6_letters_same	other
214.5217	3.0227	cross	other
219.0444	1.5226	response	hit
220.5669	4.0226	blank2	other
224.6062	0.4226	cross	other
225.1288	1.5226	2_letters_different	other
226.6514	3.0227	cross	other
231.174	1.5226	response	hit
232.6966	2.5226	blank2	other
235.2359	0.4226	cross	other
235.7418	1.5226	4_letters_same	other
237.2644	3.0227	cross	other
241.787	1.5226	response	hit
243.3096	1.0226	blank2	other
244.3488	0.4226	cross	other
244.8715	1.5226	6_letters_different	other
246.3941	3.0227	cross	other
250.9167	1.5226	response	hit
252.4392	1.5226	blank2	other
253.9785	0.4226	cross	other
254.5012	1.5226	2_letters_same	other
256.0237	3.0228	cross	other
260.5463	1.5226	response	hit
262.0689	6.0226	blank2	other
268.1082	0.4226	cross	other
268.6308	1.5226	4_letters_same	other
270.1534	3.0227	cross	other
274.676	1.5226	response	hit
276.1985	4.0226	blank2	other
280.2378	0.4226	cross	other
280.7604	1.5226	4_letters_different	other
282.283	3.0227	cross	other
286.8056	1.5226	response	hit
288.3282	1.5226	blank2	other
289.8675	0.4226	cross	other
290.3901	1.5226	2_letters_same	other
291.9127	3.0227	cross	other
296.4353	1.5226	response	hit
297.9578	5.0226	blank2	other
302.9971	0.4227	cross	other
303.5198	1.5226	6_letters_different	other
305.0424	3.0227	cross	other
309.565	1.5226	response	hit
311.0876	1.0226	blank2	other
312.1268	0.4226	cross	other
312.6495	1.5226	4_letters_same	other
314.172	3.0227	cross	other
318.6946	1.5226	response	hit
320.2172	3.0226	blank2	other
323.2564	0.4226	cross	other
323.7791	1.5227	2_letters_same	other
325.3017	3.0227	cross	other
329.8243	1.5226	response	hit
331.3469	6.0226	blank2	other
337.3862	0.4226	cross	other
337.8921	1.5226	2_letters_same	other
339.4147	3.0227	cross	other
343.9373	1.5226	response	hit
345.4599	3.0226	blank2	other
348.4992	0.4226	cross	other
349.0218	1.5226	2_letters_same	other
350.5444	3.0227	cross	other
355.0671	1.5226	response	hit
356.5896	1.5226	blank2	other
358.1289	0.4226	cross	other
358.6515	1.5226	4_letters_different	other
360.1741	3.0227	cross	other
364.6967	1.5226	response	hit
366.2193	5.5226	blank2	other
371.7586	0.4226	cross	other
372.2812	1.5226	4_letters_different	other
373.8038	3.0227	cross	other
378.3264	1.5226	response	hit
379.849	4.0227	blank2	other
383.8884	0.4227	cross	other
384.411	1.5226	6_letters_different	other
385.9337	3.0227	cross	other
390.4563	1.5226	response	hit
391.9788	4.0226	blank2	other
396.0181	0.4226	cross	other
396.5408	1.5226	4_letters_same	other
398.0633	3.0227	cross	other
402.586	1.5226	response	hit
404.1086	1.5226	blank2	other
