onset	duration	trial_type	response
0.0228	10.0226	p_startup	other
10.0621	0.4226	cross	other
10.5847	1.5226	6_letters_same	other
12.1073	3.0227	cross	other
16.6299	1.5226	response	hit
18.1525	1.5226	blank2	other
19.6918	0.4226	cross	other
20.2144	1.5226	4_letters_different	other
21.737	3.0227	cross	other
26.2596	1.5226	response	hit
27.7822	2.5226	blank2	other
30.3215	0.4226	cross	other
30.8274	1.5226	6_letters_different	other
32.35	3.0227	cross	other
36.8727	1.5226	response	miss
38.3953	1.5226	blank2	other
39.9345	0.4226	cross	other
40.4571	1.5226	2_letters_different	other
41.9797	3.0227	cross	other
46.5023	1.5226	response	hit
48.0249	2.0226	blank2	other
50.0642	0.4143	cross	other
50.5785	1.5226	6_letters_different	other
52.1011	3.0227	cross	other
56.6237	1.5226	response	hit
58.1463	4.5226	blank2	other
62.6856	0.4226	cross	other
63.2083	1.5226	2_letters_different	other
64.7309	3.0227	cross	other
69.2535	1.5226	response	hit
70.7761	3.5226	blank2	other
74.3153	0.4226	cross	other
74.838	1.5226	6_letters_same	other
76.3606	3.0227	cross	other
80.8832	1.5226	response	hit
82.4058	4.5226	blank2	other
86.945	0.4227	cross	other
87.4677	1.5226	4_letters_same	other
88.9903	3.0227	cross	other
93.5129	1.5226	response	hit
95.0355	1.0226	blank2	other
96.0748	0.4226	cross	other
96.5974	1.5227	2_letters_different	other
98.1201	3.0227	cross	other
102.6427	1.5226	response	hit
104.1653	2.0226	blank2	other
106.2045	0.4227	cross	other
106.7272	1.5226	4_letters_same	other
108.2498	3.0227	cross	other
112.7725	1.5226	response	hit
114.2951	3.0226	blank2	other
117.3343	0.4226	cross	other
117.857	1.5226	4_letters_different	other
119.3796	3.0227	cross	other
123.9022	1.5226	response	hit
125.4248	4.0226	blank2	other
129.464	0.4226	cross	other
129.9867	1.5226	2_letters_same	other
131.5093	3.0227	cross	other
136.0319	1.5226	response	hit
137.5545	1.0227	blank2	other
138.5938	0.4226	cross	other
139.1165	1.5226	6_letters_different	other
140.6391	3.0227	cross	other
145.1617	1.5226	response	hit
146.6843	3.0226	blank2	other
149.7236	0.4226	cross	other
150.2462	1.5226	6_letters_same	other
151.7688	3.0227	cross	other
156.2915	1.5226	response	hit
157.8141	1.5226	blank2	other
159.3533	0.4226	cross	other
159.8759	1.5226	6_letters_same	other
161.3986	3.0227	cross	other
165.9212	1.5226	response	hit
167.4438	2.0226	blank2	other
169.483	0.4226	cross	other
170.0057	1.5226	2_letters_different	other
171.5283	3.0227	cross	other
176.0509	1.5226	response	hit
177.5735	4.0226	blank2	other
181.6127	0.4226	cross	other
182.1353	1.5226	2_letters_different	other
183.6579	3.0227	cross	other
188.1805	1.5226	response	hit
189.7031	1.5226	blank2	other
191.2424	0.4226	cross	other
191.765	1.5226	6_letters_same	other
193.2876	3.0227	cross	other
197.8102	1.5226	response	hit
199.3328	2.0226	blank2	other
201.3721	0.4226	cross	other
201.8947	1.5226	4_letters_different	other
203.4173	3.0227	cross	other
207.9399	1.5226	response	hit
209.4625	3.0226	blank2	other
212.5018	0.4227	cross	other
213.0245	1.5226	6_letters_same	other
214.5471	3.0227	cross	other
219.0697	1.5226	response	hit
220.5923	4.0226	blank2	other
224.6315	0.4226	cross	other
225.1375	1.5226	2_letters_different	other
226.6601	3.0227	cross	other
231.1827	1.5226	response	hit
232.7053	2.5226	blank2	other
235.2446	0.4226	cross	other
235.7672	1.5226	4_letters_same	other
237.2898	3.0227	cross	other
241.8124	1.5227	response	hit
243.3351	1.0226	blank2	other
244.3743	0.4227	cross	other
244.897	1.5226	6_letters_different	other
246.4197	3.0227	cross	other
250.9423	1.5226	response	hit
252.4649	1.5226	blank2	other
254.0041	0.4226	cross	other
254.5268	1.5226	2_letters_same	other
256.0493	3.0227	cross	other
260.5719	1.5226	response	hit
262.0945	6.0226	blank2	other
268.1338	0.4226	cross	other
268.6564	1.5226	4_letters_same	other
270.179	3.0227	cross	other
274.7016	1.5226	response	hit
276.2242	4.0226	blank2	other
280.2635	0.4226	cross	other
280.7861	1.5226	4_letters_different	other
282.3087	3.0227	cross	other
286.8313	1.5226	response	hit
288.3539	1.5226	blank2	other
289.8931	0.4226	cross	other
290.4158	1.5226	2_letters_same	other
291.9384	3.0227	cross	other
296.461	1.5226	response	hit
297.9836	5.0226	blank2	other
303.0228	0.4226	cross	other
303.5454	1.5226	6_letters_different	other
305.068	3.0227	cross	other
309.5906	1.5226	response	hit
311.1132	1.0226	blank2	other
312.1525	0.4227	cross	other
312.6752	1.5226	4_letters_same	other
314.1978	3.0227	cross	other
318.7204	1.5226	response	hit
320.2429	3.0226	blank2	other
323.2822	0.4226	cross	other
323.8048	1.5226	2_letters_same	other
325.3274	3.0227	cross	other
329.85	1.5226	response	hit
331.3726	6.0226	blank2	other
337.4119	0.4226	cross	other
337.9345	1.5226	2_letters_same	other
339.4571	3.0227	cross	other
343.9797	1.5226	response	hit
345.5023	3.0226	blank2	other
348.5416	0.4227	cross	other
349.0476	1.5162	2_letters_same	other
350.5638	3.0227	cross	other
355.0863	1.5226	response	hit
356.6089	1.5226	blank2	other
358.1482	0.4226	cross	other
358.6542	1.5226	4_letters_different	other
360.1767	3.0227	cross	other
364.6993	1.5226	response	hit
366.2219	5.5226	blank2	other
371.7612	0.4226	cross	other
372.2671	1.5226	4_letters_different	other
373.7897	3.0228	cross	other
378.3124	1.5226	response	hit
379.835	4.0226	blank2	other
383.8742	0.4226	cross	other
384.3969	1.5226	6_letters_different	other
385.9195	3.0227	cross	other
390.4421	1.5226	response	hit
391.9647	4.0226	blank2	other
396.0039	0.4227	cross	other
396.5266	1.5226	4_letters_same	other
398.0492	3.0227	cross	other
402.5718	1.5226	response	hit
404.0945	1.5226	blank2	other
