onset	duration	trial_type	response
0.0228	5.0271	Bfix	other
5.0499	0.2226	characters	other
6.3451	0.2226	house	other
7.6069	0.2226	characters	other
8.9855	0.2226	animal	other
10.264	0.2226	target_fruit	other
11.7258	0.2226	pseudoword	other
13.1877	0.2226	pseudoword	other
14.6496	0.2226	characters	other
15.9115	0.2226	characters	other
17.1734	0.2226	characters	other
18.5686	0.2226	animal	other
19.8471	0.2226	house	other
21.3256	0.2226	animal	other
22.8208	0.2226	animal	other
24.2826	0.2226	characters	other
25.6778	0.2226	target_fruit	other
27.1396	0.2226	characters	other
28.5349	0.2226	house	other
29.8967	0.2226	characters	other
31.2919	0.2226	house	other
32.5537	0.2226	pseudoword	other
34.049	0.2226	animal	other
35.4108	0.2226	pseudoword	other
36.906	0.2226	house	other
38.3012	0.2226	animal	other
39.7631	5.0263	Bfix	other
44.7893	0.2226	pseudoword	other
46.0512	0.2226	characters	other
47.5463	0.2226	animal	other
48.9416	0.2226	house	other
50.2034	0.2226	pseudoword	other
51.4985	0.2226	house	other
52.9604	0.2226	pseudoword	other
54.3556	0.2226	house	other
55.6508	0.2226	house	other
56.946	0.2226	house	other
58.4078	0.2226	pseudoword	other
59.7864	0.2226	animal	other
61.2816	0.2226	target_fruit	other
62.5768	0.2226	house	other
64.0386	0.2226	characters	other
65.5339	0.2226	house	other
66.8291	0.2226	house	other
68.3242	0.2226	house	other
69.6861	0.2226	pseudoword	other
71.0479	0.2226	characters	other
72.5098	5.0528	Bfix	other
77.5626	0.2226	house	other
79.0578	0.2226	animal	other
80.3197	0.2226	pseudoword	other
81.7815	0.2226	pseudoword	other
83.2434	0.2226	characters	other
84.5052	0.2226	characters	other
86.0004	0.2226	animal	other
87.4956	0.2226	house	other
88.7907	0.2226	animal	other
90.1694	0.2226	animal	other
91.4646	0.2226	animal	other
92.8597	0.2226	house	other
94.1549	0.2226	animal	other
95.6501	0.2226	house	other
97.012	0.2226	pseudoword	other
98.2738	0.2226	pseudoword	other
99.669	0.2226	animal	other
101.1642	0.2226	animal	other
102.5261	0.2226	pseudoword	other
103.9213	0.2226	animal	other
105.2831	0.2226	characters	other
106.645	0.2226	pseudoword	other
108.0402	0.2226	target_fruit	other
109.502	0.2226	pseudoword	other
110.7973	0.2226	house	other
112.1758	0.2226	animal	other
113.6376	0.2226	pseudoword	other
114.9995	0.2226	characters	other
116.4947	0.2226	animal	other
117.8899	0.2226	house	other
119.1518	5.0226	Bfix	other
124.2244	0.2226	house	other
125.7196	0.2226	animal	other
127.1814	0.2226	pseudoword	other
128.4433	0.2226	characters	other
129.8051	0.2226	characters	other
131.3004	0.2226	animal	other
132.6622	0.2226	characters	other
134.1574	0.2226	house	other
135.4192	0.2226	pseudoword	other
136.7145	0.2226	animal	other
137.9763	0.2226	pseudoword	other
139.2381	0.2226	characters	other
140.7	0.2226	pseudoword	other
142.0953	0.2226	animal	other
143.3571	0.2226	pseudoword	other
144.719	0.2226	characters	other
146.1809	0.2226	pseudoword	other
147.5427	0.2226	characters	other
148.8046	0.2226	characters	other
150.1665	0.2226	pseudoword	other
151.5283	5.0226	Bfix	other
156.5676	0.2226	pseudoword	other
157.9294	0.2227	characters	other
159.3913	0.2226	characters	other
160.8865	0.2226	house	other
162.165	0.2226	target_fruit	other
163.4603	0.2226	house	other
164.8555	0.2226	house	other
166.2507	0.2227	animal	other
167.646	0.2226	animal	other
169.0412	0.2226	animal	other
170.303	5.0529	Bfix	other
175.3559	0.2226	scene	other
176.6511	0.2226	visage	other
177.9463	0.2226	tool	other
179.4415	0.2226	visage	other
180.72	0.2226	scene	other
181.9986	0.2226	target_fruit	other
183.2937	0.2226	scrambled	other
184.6889	0.2226	scene	other
186.1841	0.2226	scrambled	other
187.4627	0.2226	scrambled	other
188.7579	0.2226	scrambled	other
190.0531	0.2226	scrambled	other
191.5483	0.2226	visage	other
193.0435	0.2226	tool	other
194.3387	0.2226	scene	other
195.7172	0.2226	scene	other
197.0957	0.2226	scene	other
198.4909	0.2226	tool	other
199.8861	0.2226	scene	other
201.2813	0.2226	scrambled	other
202.5764	0.2226	scene	other
204.055	0.2226	visage	other
205.3502	0.2226	visage	other
206.6287	0.2226	scrambled	other
208.0239	0.2226	tool	other
209.3858	5.0531	Bfix	other
214.4388	0.2226	scrambled	other
215.934	0.2226	tool	other
217.4292	0.2226	visage	other
218.7244	0.2226	scrambled	other
220.0196	0.2226	scrambled	other
221.4148	0.2226	scrambled	other
222.91	0.2226	tool	other
224.3052	0.2226	scene	other
225.6004	0.2226	scrambled	other
226.9955	0.2226	scene	other
228.3907	0.2226	scene	other
229.886	0.2226	scrambled	other
231.3811	0.2226	visage	other
232.6597	0.2226	target_fruit	other
234.0548	0.2226	tool	other
235.55	0.2226	tool	other
236.9453	0.2226	visage	other
238.2238	0.2226	target_fruit	other
239.6189	0.2226	scrambled	other
240.8975	0.2226	target_fruit	other
242.1759	0.2226	scrambled	other
243.4711	0.2226	visage	other
244.9664	0.2226	scene	other
246.2615	0.2226	tool	other
247.5401	0.2226	scrambled	other
249.0019	5.0531	Bfix	other
254.0551	0.2226	scene	other
255.5503	0.2226	visage	other
256.9454	0.2226	scene	other
258.3406	0.2226	visage	other
259.8358	0.2226	visage	other
261.131	0.2226	tool	other
262.6095	0.2226	visage	other
264.0047	0.2226	visage	other
265.4999	0.2226	scene	other
266.7951	0.2226	scene	other
268.1902	0.2226	scrambled	other
269.6854	0.2226	tool	other
271.0806	0.2226	tool	other
272.5758	0.2226	scene	other
274.071	0.2226	scrambled	other
275.3662	0.2226	scene	other
276.6613	0.2226	scene	other
277.9566	0.2226	tool	other
279.3351	0.2226	visage	other
280.6303	0.2226	scrambled	other
282.1255	0.2226	visage	other
283.5207	0.2226	visage	other
284.8158	0.2226	tool	other
286.311	0.2226	tool	other
287.8062	0.2226	tool	other
289.2681	5.0528	Bfix	other
294.3209	0.2226	scene	other
295.8161	0.2226	tool	other
297.2112	0.2226	visage	other
298.6064	0.2226	scrambled	other
299.885	0.2226	scene	other
301.2802	0.2226	visage	other
302.7753	0.2226	tool	other
304.1705	0.2226	scrambled	other
305.5657	0.2226	scrambled	other
306.9609	0.2226	tool	other
308.2561	0.2226	scrambled	other
309.5513	0.2226	visage	other
310.8465	0.2226	visage	other
312.225	0.2226	tool	other
313.5202	0.2226	scrambled	other
314.8154	0.2226	tool	other
316.2106	0.2226	scene	other
317.6057	0.2226	scrambled	other
319.0009	0.2226	tool	other
320.3961	0.2226	scene	other
321.858	5.0532	Bfix	other
326.9111	0.2226	scrambled	other
328.3063	0.2226	scene	other
329.6849	0.2226	visage	other
331.0801	0.2226	scrambled	other
332.5752	0.2226	visage	other
333.8704	0.2226	tool	other
335.2655	0.2226	scene	other
336.7607	0.2226	target_fruit	other
338.1559	0.2226	tool	other
339.651	0.2226	tool	other
340.9129	7.2118	Bfix	other
