onset	duration	trial_type	response
0.0229	5.0226	Bfix	other
5.0789	0.2226	house	other
6.5574	0.2226	animal	other
7.9192	0.2226	pseudoword	other
9.2811	0.2226	pseudoword	other
10.7763	0.2226	house	other
12.2381	0.2226	pseudoword	other
13.6167	0.2226	house	other
14.9785	0.2226	pseudoword	other
16.2404	0.2226	pseudoword	other
17.5189	0.2226	animal	other
18.9974	0.2226	house	other
20.3593	0.2226	pseudoword	other
21.7378	0.2226	animal	other
22.9996	0.2226	characters	other
24.2782	0.2226	house	other
25.7568	0.2226	target_fruit	other
27.2186	0.2226	characters	other
28.5971	0.2226	animal	other
30.0756	0.2226	animal	other
31.3375	0.2226	pseudoword	other
32.7994	0.2226	characters	other
34.1612	0.2226	characters	other
35.4398	0.2226	house	other
36.7183	0.2226	house	other
37.9968	0.2226	animal	other
39.4587	5.0267	Bfix	other
44.4854	0.2226	characters	other
45.864	0.2226	house	other
47.2425	0.2226	target_fruit	other
48.5211	0.2226	house	other
49.8829	0.2226	characters	other
51.1448	0.2226	pseudoword	other
52.6067	0.2226	characters	other
53.9852	0.2226	animal	other
55.3637	0.2226	animal	other
56.8256	0.2226	characters	other
58.1041	0.2226	animal	other
59.5659	0.2226	pseudoword	other
60.9278	0.2226	pseudoword	other
62.2063	0.2226	animal	other
63.5682	0.2226	pseudoword	other
65.0468	0.2226	house	other
66.5253	0.2226	house	other
67.9038	0.2226	animal	other
69.1823	0.2227	target_fruit	other
70.6443	0.2226	pseudoword	other
72.0062	5.0226	Bfix	other
77.0454	0.2226	characters	other
78.4073	0.2226	pseudoword	other
79.8858	0.2226	animal	other
81.1477	0.2226	characters	other
82.5262	0.2226	target_fruit	other
83.988	0.2226	pseudoword	other
85.4499	0.2226	pseudoword	other
86.9285	0.2226	animal	other
88.307	0.2226	house	other
89.6856	0.2226	animal	other
91.0474	0.2226	pseudoword	other
92.5093	0.2226	pseudoword	other
93.9878	0.2226	animal	other
95.4496	0.2226	pseudoword	other
96.9282	0.2226	house	other
98.39	0.2226	pseudoword	other
99.8519	0.2226	characters	other
101.2304	0.2226	house	other
102.6828	0.2226	characters	other
103.9613	0.2226	animal	other
105.3398	0.2226	animal	other
106.8017	0.2226	pseudoword	other
108.1802	0.2226	animal	other
109.5587	0.2226	animal	other
110.9373	0.2226	animal	other
112.3158	0.2226	animal	other
113.6777	0.2226	pseudoword	other
115.0395	0.2226	characters	other
116.5014	0.2226	pseudoword	other
117.9799	0.2226	house	other
119.4418	5.0259	Bfix	other
124.4677	0.2226	characters	other
125.8462	0.2226	house	other
127.2081	0.2226	characters	other
128.5699	0.2226	characters	other
129.8318	0.2226	characters	other
131.1103	0.2226	animal	other
132.4721	0.2226	characters	other
133.934	0.2226	pseudoword	other
135.3292	0.2226	house	other
136.6077	0.2226	house	other
137.9695	0.2226	characters	other
139.3481	0.2226	target_fruit	other
140.6266	0.2226	animal	other
142.0885	0.2226	pseudoword	other
143.5504	0.2226	pseudoword	other
144.8123	0.2226	characters	other
146.0908	0.2226	house	other
147.4693	0.2226	house	other
148.7478	0.2226	house	other
150.2264	0.2226	animal	other
151.4883	5.0226	Bfix	other
156.5275	0.2226	characters	other
157.8894	0.2226	characters	other
159.3679	0.2226	animal	other
160.6465	0.2226	house	other
161.925	0.2226	house	other
163.2868	0.2226	characters	other
164.7654	0.2226	house	other
166.1439	0.2226	house	other
167.6057	0.2226	characters	other
169.0843	0.2226	animal	other
170.4462	5.0226	Bfix	other
175.5188	0.2226	visage	other
176.9973	0.2226	visage	other
178.3759	0.2226	scrambled	other
179.8544	0.2226	scene	other
181.1496	0.2226	visage	other
182.5281	0.2226	target_fruit	other
184.0066	0.2226	visage	other
185.3852	0.2226	visage	other
186.8637	0.2226	visage	other
188.2422	0.2226	tool	other
189.7207	0.2226	tool	other
190.9992	0.2226	visage	other
192.2778	0.2226	tool	other
193.6563	0.2226	visage	other
195.1348	0.2226	scene	other
196.4133	0.2226	scene	other
197.8919	0.2226	tool	other
199.3704	0.2226	scene	other
200.7489	0.2226	tool	other
202.2275	0.2226	scrambled	other
203.506	0.2226	tool	other
204.7846	0.2226	scene	other
206.1797	0.2226	scene	other
207.4582	0.2226	scene	other
208.9368	0.2226	tool	other
210.1986	5.0455	Bfix	other
215.2441	0.2226	tool	other
216.5393	0.2226	scrambled	other
218.0178	0.2226	visage	other
219.4964	0.2226	visage	other
220.9749	0.2226	scene	other
222.4535	0.2126	scrambled	other
223.722	0.2227	scene	other
225.2006	0.2227	tool	other
226.5792	0.2226	tool	other
227.8577	0.2226	target_fruit	other
229.1362	0.2226	scene	other
230.6148	0.2226	scene	other
232.0933	0.2226	scrambled	other
233.4719	0.2226	visage	other
234.8505	0.2226	scene	other
236.129	0.2227	scene	other
237.6077	0.2226	scene	other
238.9862	0.2226	scrambled	other
240.2647	0.2226	scrambled	other
241.7433	0.2226	scene	other
243.2218	0.2226	scrambled	other
244.6003	0.2226	visage	other
245.9788	0.2226	scene	other
247.3574	0.2226	scrambled	other
248.7359	0.2226	target_fruit	other
250.1979	5.0457	Bfix	other
255.2436	0.2226	scrambled	other
256.7221	0.2226	tool	other
258.0006	0.2226	target_fruit	other
259.3792	0.2226	tool	other
260.7577	0.2226	visage	other
262.1363	0.2226	scrambled	other
263.6148	0.2226	visage	other
265.0934	0.2226	scene	other
266.5719	0.2226	scrambled	other
267.9504	0.2226	tool	other
269.2289	0.2226	visage	other
270.6075	0.2226	scene	other
272.086	0.2226	scrambled	other
273.4645	0.2226	tool	other
274.9597	0.2226	tool	other
276.2383	0.2226	visage	other
277.5168	0.2226	visage	other
278.7954	0.2226	scrambled	other
280.1739	0.2226	scene	other
281.5525	0.2226	scene	other
282.931	0.2226	tool	other
284.2095	0.2226	scrambled	other
285.488	0.2226	tool	other
286.8666	0.2226	scrambled	other
288.2451	0.2226	scrambled	other
289.607	5.0455	Bfix	other
294.6526	0.2226	scrambled	other
296.0311	0.2226	scene	other
297.3096	0.2226	scrambled	other
298.7881	0.2226	tool	other
300.0667	0.2226	visage	other
301.4452	0.2226	scrambled	other
302.9237	0.2226	tool	other
304.4023	0.2226	scrambled	other
305.8976	0.2226	visage	other
307.1761	0.2226	visage	other
308.4547	0.2226	tool	other
309.7499	0.2226	tool	other
311.1285	0.2226	scene	other
312.407	0.2226	target_fruit	other
313.6855	0.2226	scrambled	other
315.164	0.2226	scrambled	other
316.5592	0.2226	scrambled	other
317.9378	0.2226	visage	other
319.3163	0.2226	scrambled	other
320.5948	0.2226	tool	other
321.8567	5.0455	Bfix	other
326.9022	0.2226	visage	other
328.3807	0.2226	scrambled	other
329.8593	0.2226	scrambled	other
331.1378	0.2226	tool	other
332.6163	0.2226	scene	other
333.9948	0.2226	scene	other
335.4733	0.2226	visage	other
336.9519	0.2226	scene	other
338.3305	0.2226	tool	other
339.709	0.2226	tool	other
340.971	7.1877	Bfix	other
