onset	duration	trial_type	response
0.0229	5.0307	Bfix	other
5.0536	0.2227	characters	other
6.5322	0.2226	house	other
7.7941	0.2226	characters	other
9.2893	0.2226	animal	other
10.7846	0.2226	target_fruit	other
12.1465	0.2226	pseudoword	other
13.4084	0.2226	pseudoword	other
14.8703	0.2227	characters	other
16.2323	0.2226	characters	other
17.6943	0.2226	characters	other
18.9728	0.2226	animal	other
20.468	0.2226	house	other
21.7466	0.2227	animal	other
23.1252	0.2226	animal	other
24.4871	0.2226	characters	other
25.7657	0.2226	target_fruit	other
27.2276	0.2226	characters	other
28.6062	0.2227	house	other
29.8682	0.2226	characters	other
31.3468	0.2226	house	other
32.8086	0.2227	pseudoword	other
34.2039	0.2226	animal	other
35.4657	0.2226	pseudoword	other
36.8443	0.2226	house	other
38.1228	0.2226	animal	other
39.5847	5.0259	Bfix	other
44.6106	0.2226	pseudoword	other
45.9725	0.2226	characters	other
47.4677	0.2227	animal	other
48.963	0.2226	house	other
50.3248	0.2226	pseudoword	other
51.82	0.2226	house	other
53.1819	0.2226	pseudoword	other
54.5604	0.2226	house	other
55.8556	0.2226	house	other
57.2341	0.2227	house	other
58.6961	0.2226	pseudoword	other
60.1913	0.2226	animal	other
61.4865	0.2226	target_fruit	other
62.7817	0.2226	house	other
64.0435	0.2226	characters	other
65.3388	0.2226	house	other
66.7173	0.2226	house	other
68.0958	0.2226	house	other
69.4577	0.2226	pseudoword	other
70.8195	0.2226	characters	other
72.1814	5.0226	Bfix	other
77.254	0.2226	house	other
78.6326	0.2226	animal	other
79.9944	0.2226	pseudoword	other
81.2563	0.2226	pseudoword	other
82.7181	0.2226	characters	other
84.18	0.2226	characters	other
85.6752	0.2226	animal	other
87.0705	0.2226	house	other
88.5656	0.2227	animal	other
89.8609	0.2226	animal	other
91.1561	0.2226	animal	other
92.4513	0.2227	house	other
93.9466	0.2226	animal	other
95.4417	0.2226	house	other
96.8036	0.2226	pseudoword	other
98.2655	0.2226	pseudoword	other
99.6607	0.2226	animal	other
100.956	0.2226	animal	other
102.2178	0.2226	pseudoword	other
103.613	0.2226	animal	other
104.9748	0.2226	characters	other
106.3367	0.2226	pseudoword	other
107.7319	0.2226	target_fruit	other
108.9937	0.2226	pseudoword	other
110.3723	0.2226	house	other
111.6675	0.2226	animal	other
112.9293	0.2226	pseudoword	other
114.1912	0.2226	characters	other
115.5864	0.2226	animal	other
116.9816	0.2226	house	other
118.3435	5.0463	Bfix	other
123.3897	0.2226	house	other
124.7849	0.2226	animal	other
126.2468	0.2226	pseudoword	other
127.6086	0.2226	characters	other
128.9705	0.2226	characters	other
130.349	0.2226	animal	other
131.7109	0.2226	characters	other
133.0894	0.2226	house	other
134.3512	0.2226	pseudoword	other
135.7297	0.2227	animal	other
136.9917	0.2226	pseudoword	other
138.4536	0.2226	characters	other
139.8154	0.2226	pseudoword	other
141.094	0.2226	animal	other
142.3558	0.2226	pseudoword	other
143.8177	0.2226	characters	other
145.1795	0.2226	pseudoword	other
146.4414	0.2226	characters	other
147.9033	0.2226	characters	other
149.1652	0.2226	pseudoword	other
150.4271	5.0263	Bfix	other
155.4533	0.2226	pseudoword	other
156.9152	0.2226	characters	other
158.277	0.2226	characters	other
159.5722	0.2226	house	other
161.0675	0.2226	target_fruit	other
162.4627	0.2226	house	other
163.8579	0.2226	house	other
165.3531	0.2226	animal	other
166.7483	0.2226	animal	other
168.0268	0.2226	animal	other
169.4887	5.054	Bfix	other
174.5426	0.2226	scene	other
175.9379	0.2226	visage	other
177.3331	0.2226	tool	other
178.6283	0.2226	visage	other
180.1235	0.2226	scene	other
181.602	0.2226	target_fruit	other
182.8972	0.2226	scrambled	other
184.1924	0.2226	scene	other
185.6876	0.2226	scrambled	other
186.9828	0.2226	scrambled	other
188.278	0.2226	scrambled	other
189.5564	0.2226	scrambled	other
190.8515	0.2226	visage	other
192.2467	0.2226	tool	other
193.742	0.2226	scene	other
195.1371	0.2226	scene	other
196.5323	0.2226	scene	other
197.9275	0.2226	tool	other
199.2227	0.2226	scene	other
200.7179	0.2226	scrambled	other
202.2131	0.2226	scene	other
203.7083	0.2226	visage	other
205.1035	0.2226	visage	other
206.4987	0.2226	scrambled	other
207.8772	0.2226	tool	other
209.2391	5.0533	Bfix	other
214.2924	0.2226	scrambled	other
215.5876	0.2226	tool	other
216.9827	0.2226	visage	other
218.278	0.2226	scrambled	other
219.5732	0.2226	scrambled	other
220.8684	0.2226	scrambled	other
222.1636	0.2226	tool	other
223.4587	0.2226	scene	other
224.8539	0.2226	scrambled	other
226.1325	0.2226	scene	other
227.5277	0.2226	scene	other
229.0229	0.2226	scrambled	other
230.4181	0.2226	visage	other
231.6966	0.2226	target_fruit	other
233.0758	0.2226	tool	other
234.371	0.2226	tool	other
235.6662	0.2226	visage	other
237.0447	0.2226	target_fruit	other
238.5233	0.2226	scrambled	other
239.9018	0.2227	target_fruit	other
241.1971	0.2226	scrambled	other
242.5922	0.2226	visage	other
243.9874	0.2226	scene	other
245.3826	0.2226	tool	other
246.6778	0.2226	scrambled	other
248.1396	5.0532	Bfix	other
253.1928	0.2226	scene	other
254.488	0.2226	visage	other
255.8832	0.2226	scene	other
257.1783	0.2226	visage	other
258.6735	0.2226	visage	other
260.1687	0.2226	tool	other
261.4639	0.2226	visage	other
262.7591	0.2226	visage	other
264.2376	0.2226	scene	other
265.6328	0.2226	scene	other
267.128	0.2226	scrambled	other
268.5232	0.2226	tool	other
269.9184	0.2226	tool	other
271.2969	0.2226	scene	other
272.6921	0.2226	scrambled	other
273.9873	0.2226	scene	other
275.4825	0.2226	scene	other
276.8777	0.2226	tool	other
278.273	0.2226	visage	other
279.7682	0.2167	scrambled	other
281.2408	0.2226	visage	other
282.736	0.2226	visage	other
284.2313	0.2226	tool	other
285.5264	0.2226	tool	other
286.9217	0.2226	tool	other
288.2835	5.0226	Bfix	other
293.3561	0.2226	scene	other
294.6513	0.2226	tool	other
296.1465	0.2226	visage	other
297.4417	0.2226	scrambled	other
298.8368	0.2226	scene	other
300.132	0.2226	visage	other
301.6106	0.2226	tool	other
303.1058	0.2226	scrambled	other
304.3843	0.2226	scrambled	other
305.7628	0.2226	tool	other
307.258	0.2226	scrambled	other
308.7366	0.2226	visage	other
310.1151	0.2226	visage	other
311.3936	0.2226	tool	other
312.8888	0.2226	scrambled	other
314.3673	0.2226	tool	other
315.7625	0.2226	scene	other
317.1577	0.2226	scrambled	other
318.6529	0.2226	tool	other
320.0481	0.2226	scene	other
321.4099	5.0533	Bfix	other
326.4632	0.2226	scrambled	other
327.9585	0.2226	scene	other
329.237	0.2226	visage	other
330.7322	0.2226	scrambled	other
332.1274	0.2226	visage	other
333.6226	0.2226	tool	other
335.0177	0.2226	scene	other
336.4963	0.2226	target_fruit	other
337.8915	0.2226	tool	other
339.1867	0.2226	tool	other
340.4485	7.1413	Bfix	other
