onset	duration	trial_type	response
0.0228	5.0436	Bfix	other
5.0664	0.2226	house	other
6.3449	0.2226	animal	other
7.6068	0.2226	pseudoword	other
9.0687	0.2226	pseudoword	other
10.3472	0.2226	house	other
11.6091	0.2226	pseudoword	other
12.9877	0.2226	house	other
14.4495	0.2227	pseudoword	other
15.9114	0.2226	pseudoword	other
17.39	0.2226	animal	other
18.8685	0.2226	house	other
20.1304	0.2226	pseudoword	other
21.4089	0.2226	animal	other
22.8708	0.2226	characters	other
24.1493	0.2226	house	other
25.5278	0.2226	target_fruit	other
26.9897	0.2226	characters	other
28.4683	0.2226	animal	other
29.7468	0.2226	animal	other
31.2087	0.2226	pseudoword	other
32.5706	0.2226	characters	other
33.8324	0.2226	characters	other
35.111	0.2226	house	other
36.5895	0.2226	house	other
37.8681	0.2226	animal	other
39.2299	5.0272	Bfix	other
44.2572	0.2226	characters	other
45.6357	0.2226	house	other
47.0143	0.2226	target_fruit	other
48.4928	0.2226	house	other
49.8548	0.2226	characters	other
51.2166	0.2226	pseudoword	other
52.5785	0.2227	characters	other
54.0571	0.2226	animal	other
55.3356	0.2226	animal	other
56.6975	0.2127	characters	other
57.9661	0.2226	animal	other
59.428	0.2226	pseudoword	other
60.6898	0.2226	pseudoword	other
62.1684	0.2227	animal	other
63.6304	0.2226	pseudoword	other
65.109	0.2226	house	other
66.4875	0.2226	house	other
67.866	0.2226	animal	other
69.3446	0.2226	target_fruit	other
70.8065	0.2226	pseudoword	other
72.1683	5.0228	Bfix	other
77.1911	0.2226	characters	other
78.553	0.2226	pseudoword	other
80.0315	0.2226	animal	other
81.3934	0.2226	characters	other
82.6719	0.2226	target_fruit	other
83.9337	0.2226	pseudoword	other
85.1955	0.2226	pseudoword	other
86.4741	0.2226	animal	other
87.8526	0.2226	house	other
89.3312	0.2226	animal	other
90.793	0.2226	pseudoword	other
92.2549	0.2226	pseudoword	other
93.6501	0.2226	animal	other
94.9119	0.2226	pseudoword	other
96.2905	0.2226	house	other
97.6523	0.2226	pseudoword	other
99.1142	0.2226	characters	other
100.3928	0.2226	house	other
101.8546	0.2226	characters	other
103.3332	0.2226	animal	other
104.6117	0.2226	animal	other
105.9736	0.2226	pseudoword	other
107.2521	0.2226	animal	other
108.5307	0.2226	animal	other
110.0092	0.2226	animal	other
111.3877	0.2226	animal	other
112.7496	0.2226	pseudoword	other
114.2114	0.2226	characters	other
115.5733	0.2226	pseudoword	other
117.047	0.2226	house	other
118.5088	5.0226	Bfix	other
123.5481	0.2226	characters	other
124.8266	0.2226	house	other
126.1885	0.2226	characters	other
127.5504	0.2226	characters	other
128.9122	0.2226	characters	other
130.3907	0.2226	animal	other
131.8526	0.2226	characters	other
133.2145	0.2226	pseudoword	other
134.7097	0.2226	house	other
135.9882	0.2227	house	other
137.3501	0.2226	characters	other
138.8286	0.2226	target_fruit	other
140.1072	0.2226	animal	other
141.3691	0.2226	pseudoword	other
142.7309	0.2226	pseudoword	other
144.0928	0.2226	characters	other
145.5714	0.2226	house	other
146.8499	0.2226	house	other
148.1285	0.2226	house	other
149.407	0.2226	animal	other
150.6689	5.0258	Bfix	other
155.6947	0.2226	characters	other
157.1566	0.2226	characters	other
158.4351	0.2226	animal	other
159.9136	0.2226	house	other
161.3921	0.2226	house	other
162.754	0.2226	characters	other
164.1326	0.2226	house	other
165.6111	0.2226	house	other
167.0729	0.2226	characters	other
168.4515	0.2226	animal	other
169.9134	5.0451	Bfix	other
174.9584	0.2226	visage	other
176.237	0.2226	visage	other
177.6155	0.2226	scrambled	other
179.1107	0.2226	scene	other
180.4893	0.2226	visage	other
181.7678	0.2226	target_fruit	other
183.2464	0.2226	visage	other
184.6249	0.2226	visage	other
186.0034	0.2226	visage	other
187.2819	0.2226	tool	other
188.7605	0.2226	tool	other
190.1391	0.2226	visage	other
191.5176	0.2226	tool	other
192.8961	0.2226	visage	other
194.1747	0.2226	scene	other
195.6532	0.2226	scene	other
197.1484	0.2226	tool	other
198.6269	0.2226	scene	other
199.9055	0.2226	tool	other
201.2007	0.2226	scrambled	other
202.5792	0.2226	tool	other
203.9577	0.2226	scene	other
205.4363	0.2226	scene	other
206.9148	0.2227	scene	other
208.1934	0.2226	tool	other
209.4553	5.0451	Bfix	other
214.5004	0.2226	tool	other
215.8789	0.2226	scrambled	other
217.1574	0.2226	visage	other
218.4359	0.2226	visage	other
219.8144	0.2226	scene	other
221.093	0.2226	scrambled	other
222.5715	0.2226	scene	other
224.05	0.2226	tool	other
225.3285	0.2226	tool	other
226.6071	0.2226	target_fruit	other
227.8857	0.2226	scene	other
229.1642	0.2226	scene	other
230.6427	0.2226	scrambled	other
232.1213	0.2226	visage	other
233.4998	0.2226	scene	other
234.8783	0.2226	scene	other
236.3569	0.2226	scene	other
237.6355	0.2226	scrambled	other
238.9307	0.2226	scrambled	other
240.3092	0.2226	scene	other
241.5878	0.2226	scrambled	other
243.0663	0.2226	visage	other
244.4449	0.2226	scene	other
245.8234	0.2226	scrambled	other
247.202	0.2226	target_fruit	other
248.4639	5.045	Bfix	other
253.5088	0.2226	scrambled	other
254.7874	0.2226	tool	other
256.2659	0.2226	target_fruit	other
257.5444	0.2226	tool	other
258.823	0.2227	visage	other
260.3016	0.2226	scrambled	other
261.5802	0.2226	visage	other
262.8587	0.2226	scene	other
264.1372	0.2226	scrambled	other
265.4158	0.2226	tool	other
266.8943	0.2226	visage	other
268.1729	0.2226	scene	other
269.4514	0.2226	scrambled	other
270.9299	0.2226	tool	other
272.3085	0.2226	tool	other
273.787	0.2226	visage	other
275.1656	0.2226	visage	other
276.5608	0.2226	scrambled	other
278.0393	0.2226	scene	other
279.5345	0.2226	scene	other
280.8131	0.2226	tool	other
282.1916	0.2226	scrambled	other
283.6702	0.2226	tool	other
285.1487	0.2226	scrambled	other
286.5273	0.2226	scrambled	other
287.8891	5.0451	Bfix	other
292.9341	0.2226	scrambled	other
294.2127	0.2226	scene	other
295.5912	0.2226	scrambled	other
296.8698	0.2226	tool	other
298.3483	0.2226	visage	other
299.8268	0.2226	scrambled	other
301.2053	0.2226	tool	other
302.4839	0.2226	scrambled	other
303.8624	0.2226	visage	other
305.141	0.2226	visage	other
306.4195	0.2226	tool	other
307.8981	0.2226	tool	other
309.1766	0.2226	scene	other
310.6552	0.2226	target_fruit	other
312.1337	0.2226	scrambled	other
313.5122	0.2226	scrambled	other
314.9907	0.2226	scrambled	other
316.3692	0.2226	visage	other
317.8478	0.2226	scrambled	other
319.1264	0.2226	tool	other
320.3882	5.0453	Bfix	other
325.4336	0.2226	visage	other
326.7121	0.2226	scrambled	other
328.1908	0.2226	scrambled	other
329.5693	0.2226	tool	other
330.8479	0.2226	scene	other
332.2264	0.2226	scene	other
333.6049	0.2227	visage	other
334.9835	0.2226	scene	other
336.462	0.2226	tool	other
337.7405	0.2226	tool	other
339.0024	7.1914	Bfix	other
